{
  "resourceType": "Bundle",
  "id": "155e1102-9e71-4f19-9453-b905c0bbc494",
  "meta": {
    "lastUpdated": "2022-11-21T14:00:00+00:00"
  },
  "type": "searchset",
  "total": 3,
  "entry": [
    {
      "fullUrl": "urn:uuid:0cb82cfa-76c8-4fb2-a08e-bf0e326e5487",
      "search": {
        "mode": "match"
      },
      "resource": {
        "resourceType": "Bundle",
        "id": "0cb82cfa-76c8-4fb2-a08e-bf0e326e5487",
        "type": "collection",
        "entry": [
          {
            "fullUrl": "urn:uuid:a54219b8-f741-4c47-b662-e4f8dfa49ab6",
            "resource": {
              "resourceType": "MedicationRequest",
              "status": "cancelled",
              "intent": "order",
              "medicationCodeableConcept": {
                "coding": [
                  {
                    "system": "http://snomed.info/sct",
                    "code": "39732311000001104",
                    "display": "Amoxicillin 250mg capsules"
                  }
                ]
              },
              "subject": {
                "identifier": {
                  "system": "https://fhir.nhs.uk/Id/nhs-number",
                  "value": "9449304130"
                }
              },
              "requester": {
                "reference": "urn:uuid:56166769-c1c4-4d07-afa8-132b5dfca666"
              },
              "groupIdentifier": {
                "system": "https://fhir.nhs.uk/Id/prescription-order-number",
                "value": "24F5DA-A83008-7EFE6Z"
              },
              "courseOfTherapyType": {
                "coding": [
                  {
                    "system": "http://terminology.hl7.org/CodeSystem/medicationrequest-course-of-therapy",
                    "code": "acute",
                    "display": "Short course (acute) therapy"
                  }
                ]
              },
              "dispenseRequest": {
                "validityPeriod": {
                  "start": "2024-02-27"
                },
                "quantity": {
                  "value": 20,
                  "unit": "tablet",
                  "system": "http://snomed.info/sct",
                  "code": "428673006"
                },
                "performer": {
                  "reference": "urn:uuid:afb07f8b-e8d7-4cad-895d-494e6b35b2a1"
                }
              },
              "substitution": {
                "allowedBoolean": false
              },
              "extension": [
                  {
                      "url": "https://fhir.nhs.uk/StructureDefinition/Extension-DM-PrescriptionStatusHistory",
                      "extension": [
                          {
                              "url": "statusDate",
                              "valueDateTime": "2024-03-02T14:04:36Z"
                          },
                          {
                              "url": "status",
                              "valueCoding": {
                                  "system": "https://fhir.nhs.uk/CodeSystem/task-businessStatus-nppt",
                                  "code": "0005",
                                  "display": "Prescriber Cancelled"
                              }
                          }
                      ]
                  }
              ]
            }
          },
          {
            "fullUrl": "urn:uuid:6989b7bd-8db6-428c-a593-4022e3044c00",
            "resource": {
              "resourceType": "MedicationRequest",
              "status": "stopped",
              "intent": "order",
              "medicationCodeableConcept": {
                "coding": [
                  {
                    "system": "http://snomed.info/sct",
                    "code": "322341003",
                    "display": "Co-codamol 30mg/500mg tablets"
                  }
                ]
              },
              "subject": {
                "identifier": {
                  "system": "https://fhir.nhs.uk/Id/nhs-number",
                  "value": "9449304130"
                }
              },
              "requester": {
                "reference": "urn:uuid:56166769-c1c4-4d07-afa8-132b5dfca666"
              },
              "groupIdentifier": {
                "system": "https://fhir.nhs.uk/Id/prescription-order-number",
                "value": "24F5DA-A83008-7EFE6Z"
              },
              "courseOfTherapyType": {
                "coding": [
                  {
                    "system": "http://terminology.hl7.org/CodeSystem/medicationrequest-course-of-therapy",
                    "code": "acute",
                    "display": "Short course (acute) therapy"
                  }
                ]
              },
              "dispenseRequest": {
                "validityPeriod": {
                  "start": "2024-02-27"
                },
                "quantity": {
                  "value": 20,
                  "unit": "tablet",
                  "system": "http://snomed.info/sct",
                  "code": "428673006"
                },
                "performer": {
                  "reference": "urn:uuid:afb07f8b-e8d7-4cad-895d-494e6b35b2a1"
                }
              },
              "substitution": {
                "allowedBoolean": false
              },
              "extension": [
                  {
                      "url": "https://fhir.nhs.uk/StructureDefinition/Extension-DM-PrescriptionStatusHistory",
                      "extension": [
                          {
                              "url": "statusDate",
                              "valueDateTime": "2024-03-02T14:04:36Z"
                          },
                          {
                              "url": "status",
                              "valueCoding": {
                                  "system": "https://fhir.nhs.uk/CodeSystem/task-businessStatus-nppt",
                                  "code": "0002",
                                  "display": "Not Dispensed"
                              }
                          }
                      ]
                  }
              ]
            }
          },
          {
            "fullUrl": "urn:uuid:2868554c-5565-4d31-b92a-c5b8dab8b90a",
            "resource": {
              "resourceType": "MedicationRequest",
              "status": "cancelled",
              "intent": "order",
              "medicationCodeableConcept": {
                "coding": [
                  {
                    "system": "http://snomed.info/sct",
                    "code": "321080004",
                    "display": "Pseudoephedrine hydrochloride 60mg tablets"
                  }
                ]
              },
              "subject": {
                "identifier": {
                  "system": "https://fhir.nhs.uk/Id/nhs-number",
                  "value": "9449304130"
                }
              },
              "requester": {
                "reference": "urn:uuid:56166769-c1c4-4d07-afa8-132b5dfca666"
              },
              "groupIdentifier": {
                "system": "https://fhir.nhs.uk/Id/prescription-order-number",
                "value": "24F5DA-A83008-7EFE6Z"
              },
              "courseOfTherapyType": {
                "coding": [
                  {
                    "system": "http://terminology.hl7.org/CodeSystem/medicationrequest-course-of-therapy",
                    "code": "acute",
                    "display": "Short course (acute) therapy"
                  }
                ]
              },
              "dispenseRequest": {
                "validityPeriod": {
                  "start": "2024-02-27"
                },
                "quantity": {
                  "value": 30,
                  "unit": "tablet",
                  "system": "http://snomed.info/sct",
                  "code": "428673006"
                },
                "performer": {
                  "reference": "urn:uuid:afb07f8b-e8d7-4cad-895d-494e6b35b2a1"
                }
              },
              "substitution": {
                "allowedBoolean": false
              },
              "extension": [
                  {
                      "url": "https://fhir.nhs.uk/StructureDefinition/Extension-DM-PrescriptionStatusHistory",
                      "extension": [
                          {
                              "url": "statusDate",
                              "valueDateTime": "2024-03-02T14:04:36Z"
                          },
                          {
                              "url": "status",
                              "valueCoding": {
                                  "system": "https://fhir.nhs.uk/CodeSystem/task-businessStatus-nppt",
                                  "code": "0005",
                                  "display": "Prescriber Cancelled"
                              }
                          }
                      ]
                  }
              ]
            }
          },
          {
            "fullUrl": "urn:uuid:5cb17f5a-11ac-4e18-825f-6470467238b3",
            "resource": {
              "resourceType": "MedicationRequest",
              "status": "stopped",
              "intent": "order",
              "medicationCodeableConcept": {
                "coding": [
                  {
                    "system": "http://snomed.info/sct",
                    "code": "324252006",
                    "display": "Azithromycin 250mg capsules"
                  }
                ]
              },
              "subject": {
                "identifier": {
                  "system": "https://fhir.nhs.uk/Id/nhs-number",
                  "value": "9449304130"
                }
              },
              "requester": {
                "reference": "urn:uuid:56166769-c1c4-4d07-afa8-132b5dfca666"
              },
              "groupIdentifier": {
                "system": "https://fhir.nhs.uk/Id/prescription-order-number",
                "value": "24F5DA-A83008-7EFE6Z"
              },
              "courseOfTherapyType": {
                "coding": [
                  {
                    "system": "http://terminology.hl7.org/CodeSystem/medicationrequest-course-of-therapy",
                    "code": "acute",
                    "display": "Short course (acute) therapy"
                  }
                ]
              },
              "dispenseRequest": {
                "validityPeriod": {
                  "start": "2024-02-27"
                },
                "quantity": {
                  "value": 30,
                  "unit": "tablet",
                  "system": "http://snomed.info/sct",
                  "code": "428673006"
                },
                "performer": {
                  "reference": "urn:uuid:afb07f8b-e8d7-4cad-895d-494e6b35b2a1"
                }
              },
              "substitution": {
                "allowedBoolean": false
              },
              "extension": [
                  {
                      "url": "https://fhir.nhs.uk/StructureDefinition/Extension-DM-PrescriptionStatusHistory",
                      "extension": [
                          {
                              "url": "statusDate",
                              "valueDateTime": "2024-03-02T14:04:36Z"
                          },
                          {
                              "url": "status",
                              "valueCoding": {
                                  "system": "https://fhir.nhs.uk/CodeSystem/task-businessStatus-nppt",
                                  "code": "0002",
                                  "display": "Not Dispensed"
                              }
                          }
                      ]
                  }
              ]
            }
          },
          {
            "fullUrl": "urn:uuid:56166769-c1c4-4d07-afa8-132b5dfca666",
            "resource": {
              "resourceType": "PractitionerRole",
              "id": "56166769-c1c4-4d07-afa8-132b5dfca666",
              "practitioner": {
                "reference": "urn:uuid:a8c85454-f8cb-498d-9629-78e2cb5fa47a"
              },
              "organization": {
                "reference": "urn:uuid:3b4b03a5-52ba-4ba6-9b82-70350aa109d8"
              }
            }
          },
          {
            "fullUrl": "urn:uuid:a8c85454-f8cb-498d-9629-78e2cb5fa47a",
            "resource": {
              "resourceType": "Practitioner",
              "id": "a8c85454-f8cb-498d-9629-78e2cb5fa47a",
              "name": [
                {
                  "family": "BOIN",
                  "given": ["C"],
                  "prefix": ["DR"]
                }
              ]
            }
          },
          {
            "fullUrl": "urn:uuid:3b4b03a5-52ba-4ba6-9b82-70350aa109d8",
            "resource": {
              "resourceType": "Organization",
              "id": "3b4b03a5-52ba-4ba6-9b82-70350aa109d8",
              "identifier": [
                {
                  "system": "https://fhir.nhs.uk/Id/ods-organization-code",
                  "value": "A83008"
                }
              ],
              "name": "HALLGARTH SURGERY",
              "telecom": [
                {
                  "system": "phone",
                  "use": "work",
                  "value": "0115 9737320"
                }
              ],
              "address": [
                {
                  "use": "work",
                  "type": "both",
                  "line": [
                    "HALLGARTH SURGERY",
                    "CHEAPSIDE",
                    "SHILDON",
                    "COUNTY DURHAM"
                  ],
                  "postalCode": "DL4 2HP"
                }
              ]
            }
          },
          {
            "fullUrl": "urn:uuid:afb07f8b-e8d7-4cad-895d-494e6b35b2a1",
            "resource": {
              "resourceType": "Organization",
              "id": "afb07f8b-e8d7-4cad-895d-494e6b35b2a1",
              "identifier": [
                {
                  "system": "https://fhir.nhs.uk/Id/ods-organization-code",
                  "value": "VNE51"
                }
              ],
              "name": "Social Care Site - HEALTH AND CARE AT HOME",
              "telecom": [
                {
                  "system": "phone",
                  "use": "work",
                  "value": "0115 9999999"
                }
              ],
              "address": [
                {
                  "use": "work",
                  "type": "both",
                  "text": "THE HEALTH AND WELLBEING INNOVATION C, TRELISKE, TRURO, CORNWALL",
                  "postalCode": "TR1 3FF"
                }
              ]
            }
          }
        ]
      }
    },
    {
      "fullUrl": "urn:uuid:5b77c3fa-8dc1-40eb-bd08-230c34f593f7",
      "search": {
        "mode": "match"
      },
      "resource": {
        "resourceType": "Bundle",
        "id": "5b77c3fa-8dc1-40eb-bd08-230c34f593f7",
        "type": "collection",
        "entry": [
          {
            "fullUrl": "urn:uuid:ee035711-7aac-48c4-951a-62c07891d37d",
            "resource": {
              "resourceType": "MedicationRequest",
              "status": "cancelled",
              "intent": "order",
              "medicationCodeableConcept": {
                "coding": [
                  {
                    "system": "http://snomed.info/sct",
                    "code": "324252006",
                    "display": "Azithromycin 250mg capsules"
                  }
                ]
              },
              "subject": {
                "identifier": {
                  "system": "https://fhir.nhs.uk/Id/nhs-number",
                  "value": "9449304130"
                }
              },
              "requester": {
                "reference": "urn:uuid:815c6eb3-41f8-4f48-9e0d-2983624d4f90"
              },
              "groupIdentifier": {
                "system": "https://fhir.nhs.uk/Id/prescription-order-number",
                "value": "566946-B86044-FEFEFN"
              },
              "courseOfTherapyType": {
                "coding": [
                  {
                    "system": "http://terminology.hl7.org/CodeSystem/medicationrequest-course-of-therapy",
                    "code": "acute",
                    "display": "Short course (acute) therapy"
                  }
                ]
              },
              "dispenseRequest": {
                "validityPeriod": {
                  "start": "2024-02-11"
                },
                "quantity": {
                  "value": 30,
                  "unit": "tablet",
                  "system": "http://snomed.info/sct",
                  "code": "428673006"
                }
              },
              "substitution": {
                "allowedBoolean": false
              },
              "extension": [
                  {
                      "url": "https://fhir.nhs.uk/StructureDefinition/Extension-DM-PrescriptionStatusHistory",
                      "extension": [
                          {
                              "url": "statusDate",
                              "valueDateTime": "2024-02-19T16:37:14Z"
                          },
                          {
                              "url": "status",
                              "valueCoding": {
                                  "system": "https://fhir.nhs.uk/CodeSystem/task-businessStatus-nppt",
                                  "code": "0005",
                                  "display": "Prescriber Cancelled"
                              }
                          }
                      ]
                  }
              ]
            }
          },
          {
            "fullUrl": "urn:uuid:815c6eb3-41f8-4f48-9e0d-2983624d4f90",
            "resource": {
              "resourceType": "PractitionerRole",
              "id": "815c6eb3-41f8-4f48-9e0d-2983624d4f90",
              "practitioner": {
                "reference": "urn:uuid:acd5b009-c78f-40f2-a48b-b38ac72de992"
              },
              "organization": {
                "reference": "urn:uuid:9683c147-ddad-41d9-9858-6e585c3f04df"
              }
            }
          },
          {
            "fullUrl": "urn:uuid:acd5b009-c78f-40f2-a48b-b38ac72de992",
            "resource": {
              "resourceType": "Practitioner",
              "id": "acd5b009-c78f-40f2-a48b-b38ac72de992",
              "name": [
                {
                  "family": "ROBINSON",
                  "given": ["C"],
                  "prefix": ["DR"]
                }
              ]
            }
          },
          {
            "fullUrl": "urn:uuid:9683c147-ddad-41d9-9858-6e585c3f04df",
            "resource": {
              "resourceType": "Organization",
              "id": "9683c147-ddad-41d9-9858-6e585c3f04df",
              "identifier": [
                {
                  "system": "https://fhir.nhs.uk/Id/ods-organization-code",
                  "value": "B86044"
                }
              ],
              "name": "IRELAND WOOD SURGERY",
              "telecom": [
                {
                  "system": "phone",
                  "value": "0113 2303470"
                }
              ],
              "address": [
                {
                  "use": "work",
                  "type": "both",
                  "text": "IVESON APPROACH, LEEDS, WEST YORKSHIRE, ENGLAND, LS16 6FR"
                }
              ]
            }
          }
        ]
      }
    },
    {
      "fullUrl": "urn:uuid:37017443-4c6f-4c22-a46c-4362972e2008",
      "search": {
        "mode": "match"
      },
      "resource": {
        "resourceType": "Bundle",
        "id": "37017443-4c6f-4c22-a46c-4362972e2008",
        "type": "collection",
        "entry": [
          {
            "fullUrl": "urn:uuid:5cb4600c-d758-42db-8091-16b030f6c00e",
            "resource": {
              "resourceType": "MedicationRequest",
              "status": "stopped",
              "intent": "order",
              "medicationCodeableConcept": {
                "coding": [
                  {
                    "system": "http://snomed.info/sct",
                    "code": "324252006",
                    "display": "Azithromycin 250mg capsules"
                  }
                ]
              },
              "subject": {
                "identifier": {
                  "system": "https://fhir.nhs.uk/Id/nhs-number",
                  "value": "9449304130"
                }
              },
              "requester": {
                "reference": "urn:uuid:86affa2e-f6e9-4d39-831e-b9b132874cda"
              },
              "groupIdentifier": {
                "system": "https://fhir.nhs.uk/Id/prescription-order-number",
                "value": "29AE98-C153C8-31BC6A"
              },
              "courseOfTherapyType": {
                "coding": [
                  {
                    "system": "http://terminology.hl7.org/CodeSystem/medicationrequest-course-of-therapy",
                    "code": "acute",
                    "display": "Short course (acute) therapy"
                  }
                ]
              },
              "dispenseRequest": {
                "validityPeriod": {
                  "start": "2023-10-17"
                },
                "quantity": {
                  "value": 30,
                  "unit": "tablet",
                  "system": "http://snomed.info/sct",
                  "code": "428673006"
                }
              },
              "substitution": {
                "allowedBoolean": false
              },
              "extension": [
                  {
                      "url": "https://fhir.nhs.uk/StructureDefinition/Extension-DM-PrescriptionStatusHistory",
                      "extension": [
                          {
                              "url": "statusDate",
                              "valueDateTime": "2023-10-15T11:12:32Z"
                          },
                          {
                              "url": "status",
                              "valueCoding": {
                                  "system": "https://fhir.nhs.uk/CodeSystem/task-businessStatus-nppt",
                                  "code": "0002",
                                  "display": "Not Dispensed"
                              }
                          }
                      ]
                  }
              ]
            }
          },
          {
            "fullUrl": "urn:uuid:86affa2e-f6e9-4d39-831e-b9b132874cda",
            "resource": {
              "resourceType": "PractitionerRole",
              "id": "86affa2e-f6e9-4d39-831e-b9b132874cda",
              "practitioner": {
                "reference": "urn:uuid:01eca5b5-bf93-4c9e-ad70-abcfc39fc19e"
              },
              "organization": {
                "reference": "urn:uuid:0ef7bc64-5a55-4f96-9c5c-3b56c64819d5"
              }
            }
          },
          {
            "fullUrl": "urn:uuid:01eca5b5-bf93-4c9e-ad70-abcfc39fc19e",
            "resource": {
              "resourceType": "Practitioner",
              "id": "01eca5b5-bf93-4c9e-ad70-abcfc39fc19e",
              "name": [
                {
                  "family": "ROBINSON",
                  "given": ["C"],
                  "prefix": ["DR"]
                }
              ]
            }
          },
          {
            "fullUrl": "urn:uuid:0ef7bc64-5a55-4f96-9c5c-3b56c64819d5",
            "resource": {
              "resourceType": "Organization",
              "id": "0ef7bc64-5a55-4f96-9c5c-3b56c64819d5",
              "identifier": [
                {
                  "system": "https://fhir.nhs.uk/Id/ods-organization-code",
                  "value": "B86044"
                }
              ],
              "name": "IRELAND WOOD SURGERY",
              "telecom": [
                {
                  "system": "phone",
                  "value": "0113 2303470"
                }
              ],
              "address": [
                {
                  "use": "work",
                  "type": "both",
                  "text": "IVESON APPROACH, LEEDS, WEST YORKSHIRE, ENGLAND, LS16 6FR"
                }
              ]
            }
          }
        ]
      }
    }
  ]
}
